{
  "resourceType": "Bundle",
  "type": "collection",
  "entry": [
    {
      "resource": {
        "resourceType": "AllergyIntolerance",
        "id": "6f1adc49-c967-4262-ad3d-14fbb9a53442",
        "meta": {
          "security": [
            {
              "system": "http://terminology.hl7.org/CodeSystem/v3-Confidentiality",
              "code": "N"
            }
          ],
          "tag": [
            {
              "system": "urn:oid:2.16.840.1.113883.3.13.10.1.1",
              "code": "FHIRr4-CR"
            }
          ]
        },
        "identifier": [
          {
            "system": "urn:oid:1.3.6.1.4.1.22812.3.2009316.3.4.10.2",
            "value": "545077400001"
          },
          {
            "system": "urn:oid:1.3.6.1.4.1.22812.3.2009316.3.4.10.2",
            "value": "545077400003"
          }
        ],
        "code": {
          "coding": [
            {
              "system": "http://www.nlm.nih.gov/research/umls/rxnorm",
              "code": "1191"
            },
            {
              "system": "http://snomed.info/sct",
              "code": "293586001"
            }
          ]
        },
        "patient": {
          "reference": "Patient/1"
        },
        "onsetPeriod": {
          "start": "2008-05-01T12:00:00Z"
        },
        "reaction": [
          {
            "manifestation": [
              {
                "coding": [
                  {
                    "system": "http://snomed.info/sct",
                    "code": "247472004"
                  }
                ],
                "text": "Hives"
              }
            ],
            "severity": "severe"
          }
        ]
      }
    },
    {
      "resource": {
        "resourceType": "Condition",
        "id": "a9f7056a-3403-411f-afb3-e979e0b20cf5",
        "meta": {
          "security": [
            {
              "system": "http://terminology.hl7.org/CodeSystem/v3-Confidentiality",
              "code": "N"
            }
          ],
          "tag": [
            {
              "system": "urn:oid:2.16.840.1.113883.3.13.10.1.1",
              "code": "FHIRr4-CR"
            }
          ]
        },
        "identifier": [
          {
            "system": "urn:oid:1.3.6.1.4.1.22812.3.2009316.3.4.1.2.1",
            "value": "545069300001"
          }
        ],
        "clinicalStatus": {
          "coding": [
            {
              "system": "http://terminology.hl7.org/CodeSystem/condition-clinical",
              "code": "active"
            }
          ]
        },
        "category": [
          {
            "coding": [
              {
                "system": "http://terminology.hl7.org/CodeSystem/condition-category",
                "code": "problem-list-item",
                "display": "Problem List Item"
              }
            ],
            "text": "Problem List Item"
          }
        ],
        "code": {
          "coding": [
            {
              "system": "http://snomed.info/sct",
              "code": "233604007"
            },
            {
              "system": "urn:oid:2.16.840.1.113883.6.103",
              "code": "486"
            },
            {
              "system": "urn:oid:2.16.840.1.113883.6.90",
              "code": "J18.9"
            },
            {
              "system": "urn:oid:2.16.840.1.113883.3.247.1.1",
              "code": "87580"
            }
          ],
          "text": "Pneumonia"
        },
        "subject": {
          "reference": "Patient/1"
        },
        "onsetDateTime": "2012-08-06T12:00:00Z"
      }
    },
    {
      "resource": {
        "resourceType": "DocumentReference",
        "id": "b99bb92a03454f1e88eed58db8d7f3ce",
        "contained": [
          {
            "resourceType": "Practitioner",
            "id": "1",
            "identifier": [
              {
                "system": "urn:oid:1.3.6.1.4.1.22812.3.2009316.3",
                "value": "92698"
              },
              {
                "system": "urn:oid:2.16.840.1.113883.4.6",
                "value": "1234123400"
              }
            ],
            "name": [
              {
                "family": "abc",
                "given": [
                  "Provider"
                ]
              }
            ]
          },
          {
            "resourceType": "Organization",
            "id": "2",
            "identifier": [
              {
                "system": "urn:oid:1.3.6.1.4.1.22812.3.2009316.3",
                "value": "3"
              }
            ],
            "active": true,
            "name": "Primary Care's Partners Test"
          }
        ],
        "status": "current",
        "subject": {
          "reference": "Patient/1"
        },
        "author": [
          {
            "reference": "#1"
          }
        ],
        "custodian": {
          "reference": "#2"
        },
        "securityLabel": [
          {
            "coding": [
              {
                "system": "http://terminology.hl7.org/CodeSystem/v3-Confidentiality",
                "code": "N"
              }
            ]
          }
        ],
        "content": [
          {
            "attachment": {
              "contentType": "application/xml;charset=UTF-8",
              "title": "Continuity of Care Document"
            }
          }
        ],
        "context": {
          "period": {
            "end": "2016-10-03T18:27:10Z"
          }
        }
      }
    },
    {
      "resource": {
        "resourceType": "Encounter",
        "id": "2bf1b9b4-b2d7-4938-bac6-c752b64067c8",
        "meta": {
          "source": "12345678910",
          "security": [
            {
              "system": "http://terminology.hl7.org/CodeSystem/v3-Confidentiality",
              "code": "N"
            }
          ],
          "tag": [
            {
              "system": "urn:oid:2.16.840.1.113883.3.13.10.1.1",
              "code": "FHIRr4-CR"
            }
          ]
        },
        "contained": [
          {
            "resourceType": "Practitioner",
            "id": "1",
            "identifier": [
              {
                "system": "urn:oid:2.16.840.1.113883.4.6",
                "value": "12345678910"
              }
            ],
            "name": [
              {
                "family": "Khan",
                "given": [
                  "Samir"
                ],
                "prefix": [
                  "Dr."
                ]
              }
            ]
          }
        ],
        "identifier": [
          {
            "system": "urn:ietf:rfc:3986",
            "value": "urn:uuid:2a620155-9d11-439e-92b3-5d9815ff4de8"
          }
        ],
        "status": "finished",
        "class": {
          "system": "urn:oid:2.16.840.1.113883.6.12",
          "code": "99213",
          "display": "Office outpatient visit 15 minutes"
        },
        "type": [
          {
            "coding": [
              {
                "system": "http://www.ama-assn.org/go/cpt",
                "code": "99213",
                "display": "Office outpatient visit 15 minutes"
              }
            ],
            "text": "Office outpatient visit"
          }
        ],
        "subject": {
          "reference": "Patient/1"
        },
        "participant": [
          {
            "type": [
              {
                "text": "Internal Medicine"
              }
            ],
            "individual": {
              "reference": "#1"
            }
          }
        ],
        "period": {
          "start": "2012-08-15T18:00:00Z"
        }
      }
    },
    {
      "resource": {
        "resourceType": "Immunization",
        "id": "f394fa1d-fbfc-4346-be6b-805603a59f82",
        "meta": {
          "source": "2981824",
          "security": [
            {
              "system": "http://terminology.hl7.org/CodeSystem/v3-Confidentiality",
              "code": "N"
            }
          ],
          "tag": [
            {
              "system": "urn:oid:2.16.840.1.113883.3.13.10.1.1",
              "code": "FHIRr4-CR"
            }
          ]
        },
        "contained": [
          {
            "resourceType": "Practitioner",
            "id": "1",
            "identifier": [
              {
                "system": "urn:oid:2.16.840.1.113883.19.5.9999.456",
                "value": "2981824"
              }
            ],
            "name": [
              {
                "family": "Assigned",
                "given": [
                  "Amanda"
                ]
              }
            ]
          }
        ],
        "identifier": [
          {
            "system": "urn:ietf:rfc:3986",
            "value": "urn:uuid:e6f1ba43-c0ed-4b9b-9f12-f435d8ad8f92"
          }
        ],
        "status": "completed",
        "vaccineCode": {
          "coding": [
            {
              "system": "http://hl7.org/fhir/sid/cvx",
              "code": "88",
              "display": "Influenza virus vaccine"
            }
          ],
          "text": "Influenza Virus Vaccine"
        },
        "patient": {
          "reference": "Patient/1"
        },
        "occurrenceDateTime": "2010-08-15T12:00:00Z",
        "recorded": "2010-08-15T12:00:00+00:00",
        "lotNumber": "1",
        "performer": [
          {
            "actor": {
              "reference": "#1"
            }
          }
        ]
      }
    },
    {
      "resource": {
        "resourceType": "MedicationRequest",
        "id": "6b00af81-a265-4ae7-b04c-4bc764cc10c4",
        "meta": {
          "security": [
            {
              "system": "http://terminology.hl7.org/CodeSystem/v3-Confidentiality",
              "code": "N"
            }
          ],
          "tag": [
            {
              "system": "urn:oid:2.16.840.1.113883.3.13.10.1.1",
              "code": "FHIRr4-CR"
            }
          ]
        },
        "identifier": [
          {
            "system": "urn:ietf:rfc:3986",
            "value": "urn:uuid:cdbd33f0-6cde-11db-9fe1-0800200c9a66"
          }
        ],
        "status": "active",
        "intent": "order",
        "medicationCodeableConcept": {
          "coding": [
            {
              "system": "http://www.nlm.nih.gov/research/umls/rxnorm",
              "code": "582498",
              "display": "Albuterol 0.09 MG/ACTUAT inhalant powder"
            }
          ],
          "text": "Albuterol 0.09 MG/ACTUAT inhalant powder"
        },
        "subject": {
          "reference": "Patient/1"
        },
        "groupIdentifier": {
          "system": "urn:ietf:rfc:3986",
          "value": "urn:uuid:2a620155-9d11-439e-92b3-5d9815ff4ee8"
        },
        "dosageInstruction": [
          {
            "sequence": 1,
            "asNeededBoolean": false,
            "doseAndRate": [
              {
                "doseQuantity": {
                  "value": 1
                }
              }
            ]
          }
        ]
      }
    },
    {
      "resource": {
        "resourceType": "Observation",
        "id": "4962a8b6-3fb1-4835-9b37-6ed285a8a965",
        "meta": {
          "security": [
            {
              "system": "http://terminology.hl7.org/CodeSystem/v3-Confidentiality",
              "code": "N"
            }
          ],
          "tag": [
            {
              "system": "urn:oid:2.16.840.1.113883.3.13.10.1.1",
              "code": "FHIRr4-CR"
            }
          ]
        },
        "contained": [
          {
            "resourceType": "PractitionerRole",
            "id": "1",
            "practitioner": {
              "reference": "#2"
            },
            "organization": {
              "reference": "#3"
            }
          },
          {
            "resourceType": "Practitioner",
            "id": "2",
            "identifier": [
              {
                "system": "urn:ietf:rfc:3986",
                "value": "urn:uuid:20cf14fb-b65c-4c8c-a54d-b0cca834c18c"
              }
            ],
            "name": [
              {
                "family": "Specialist",
                "prefix": [
                  "Dr."
                ]
              }
            ]
          },
          {
            "resourceType": "Organization",
            "id": "3",
            "active": true,
            "name": "ACME"
          }
        ],
        "identifier": [
          {
            "system": "urn:oid:1.3.6.1.4.1.22812.20.1.1.4.5",
            "value": "13"
          }
        ],
        "status": "final",
        "category": [
          {
            "coding": [
              {
                "system": "http://terminology.hl7.org/CodeSystem/observation-category",
                "code": "laboratory",
                "display": "Laboratory"
              }
            ],
            "text": "Laboratory"
          }
        ],
        "code": {
          "coding": [
            {
              "system": "http://loinc.org",
              "code": "5811-5",
              "display": "Specific gravity of Urine by Test strip"
            }
          ],
          "text": "Specific gravity of Urine by Test strip"
        },
        "subject": {
          "reference": "Patient/1"
        },
        "effectiveDateTime": "2015-06-22T12:00:00Z",
        "issued": "2016-09-08T13:32:15.000+00:00",
        "performer": [
          {
            "reference": "#1"
          }
        ],
        "valueQuantity": {
          "value": 1.015,
          "unit": "1",
          "system": "http://unitsofmeasure.org",
          "code": "1"
        },
        "referenceRange": [
          {
            "low": {
              "value": 1.005,
              "unit": "1",
              "system": "http://unitsofmeasure.org",
              "code": "1"
            },
            "high": {
              "value": 1.03,
              "unit": "1",
              "system": "http://unitsofmeasure.org",
              "code": "1"
            }
          }
        ]
      }
    },
    {
      "resource": {
        "resourceType": "Observation",
        "id": "a5930381-dd40-432b-b774-621d449127e1",
        "meta": {
          "security": [
            {
              "system": "http://terminology.hl7.org/CodeSystem/v3-Confidentiality",
              "code": "N"
            }
          ],
          "tag": [
            {
              "system": "urn:oid:2.16.840.1.113883.3.13.10.1.1",
              "code": "FHIRr4-CR"
            }
          ]
        },
        "identifier": [
          {
            "system": "urn:oid:2.16.840.1.113883.3.42.126.100001.19",
            "value": "216881330410151584"
          }
        ],
        "status": "final",
        "category": [
          {
            "coding": [
              {
                "system": "http://terminology.hl7.org/CodeSystem/observation-category",
                "code": "vital-signs",
                "display": "Vital Signs"
              }
            ],
            "text": "Vital Signs"
          }
        ],
        "code": {
          "coding": [
            {
              "system": "http://loinc.org",
              "code": "8867-4",
              "display": "HEART RATE"
            }
          ],
          "text": "HEART RATE"
        },
        "subject": {
          "reference": "Patient/1"
        },
        "effectiveDateTime": "2014-05-21T01:36:05Z",
        "valueQuantity": {
          "value": 80,
          "unit": "/min",
          "system": "http://unitsofmeasure.org",
          "code": "/min"
        }
      }
    },
    {
      "resource": {
        "resourceType": "Provenance",
        "meta": {
          "tag": [
            {
              "system": "urn:oid:2.16.840.1.113883.3.13.10.1.1",
              "code": "FHIRr4-CR"
            }
          ]
        },
        "contained": [
          {
            "resourceType": "Organization",
            "id": "1",
            "active": true,
            "name": "ACME"
          }
        ],
        "target": [
          {
            "reference": "Observation/4962a8b6-3fb1-4835-9b37-6ed285a8a965"
          }
        ],
        "recorded": "2016-09-08T13:32:15.000+00:00",
        "agent": [
          {
            "type": {
              "coding": [
                {
                  "system": "http://terminology.hl7.org/CodeSystem/provenance-participant-type",
                  "code": "author",
                  "display": "Author"
                }
              ],
              "text": "Author"
            },
            "who": {
              "reference": "#1"
            }
          }
        ],
        "entity": [
          {
            "role": "source",
            "what": {
              "reference": "DocumentReference/b99bb92a03454f1e88eed58db8d7f3ce"
            }
          }
        ]
      }
    },
    {
      "resource": {
        "resourceType": "OperationOutcome",
        "id": "b99bb92a03454f1e88eed58db8d7f3ce",
        "issue": [
          {
            "severity": "warning",
            "code": "invalid",
            "diagnostics": "INPUT Phase: The Transmitter OID (meta.extension) is blank. DocumentReference id: DocumentReference/b99bb92a03454f1e88eed58db8d7f3ce"
          },
          {
            "severity": "error",
            "code": "required",
            "diagnostics": "CONSOLIDATE Phase: 'agent' element is REQUIRED by BASE",
            "expression": [
              "Provenance.agent"
            ]
          },
          {
            "severity": "error",
            "code": "required",
            "diagnostics": "CONSOLIDATE Phase: 'class' element is REQUIRED by BASE",
            "expression": [
              "Encounter.class"
            ]
          },
          {
            "severity": "error",
            "code": "required",
            "diagnostics": "CONSOLIDATE Phase: 'agent' element is REQUIRED by BASE",
            "expression": [
              "Provenance.agent"
            ]
          },
          {
            "severity": "error",
            "code": "required",
            "diagnostics": "CONSOLIDATE Phase: 'agent' element is REQUIRED by BASE",
            "expression": [
              "Provenance.agent"
            ]
          },
          {
            "severity": "error",
            "code": "required",
            "diagnostics": "CONSOLIDATE Phase: 'agent' element is REQUIRED by BASE",
            "expression": [
              "Provenance.agent"
            ]
          },
          {
            "severity": "error",
            "code": "required",
            "diagnostics": "CONSOLIDATE Phase: 'agent' element is REQUIRED by BASE",
            "expression": [
              "Provenance.agent"
            ]
          },
          {
            "severity": "error",
            "code": "required",
            "diagnostics": "CONSOLIDATE Phase: 'status' element is REQUIRED by BASE",
            "expression": [
              "Procedure.status"
            ]
          },
          {
            "severity": "error",
            "code": "required",
            "diagnostics": "CONSOLIDATE Phase: 'agent' element is REQUIRED by BASE",
            "expression": [
              "Provenance.agent"
            ]
          }
        ]
      }
    }
  ]
}