    {
      "resource": {
        "resourceType": "Observation",
        "id": "4962a8b6-3fb1-4835-9b37-6ed285a8a965",
        "meta": {
          "security": [
            {
              "system": "http://terminology.hl7.org/CodeSystem/v3-Confidentiality",
              "code": "N"
            }
          ],
          "tag": [
            {
              "system": "urn:oid:2.16.840.1.113883.3.13.10.1.1",
              "code": "FHIRr4-CR"
            }
          ]
        },
        "contained": [
          {
            "resourceType": "PractitionerRole",
            "id": "1",
            "practitioner": {
              "reference": "#2"
            },
            "organization": {
              "reference": "#3"
            }
          },
          {
            "resourceType": "Practitioner",
            "id": "2",
            "identifier": [
              {
                "system": "urn:ietf:rfc:3986",
                "value": "urn:uuid:20cf14fb-b65c-4c8c-a54d-b0cca834c18c"
              }
            ],
            "name": [
              {
                "family": "Specialist",
                "prefix": [
                  "Dr."
                ]
              }
            ]
          },
          {
            "resourceType": "Organization",
            "id": "3",
            "active": true,
            "name": "ACME"
          }
        ],
        "identifier": [
          {
            "system": "urn:oid:1.3.6.1.4.1.22812.20.1.1.4.5",
            "value": "13"
          }
        ],
        "status": "final",
        "category": [
          {
            "coding": [
              {
                "system": "http://terminology.hl7.org/CodeSystem/observation-category",
                "code": "laboratory",
                "display": "Laboratory"
              }
            ],
            "text": "Laboratory"
          }
        ],
        "code": {
          "coding": [
            {
              "system": "http://loinc.org",
              "code": "5811-5",
              "display": "Specific gravity of Urine by Test strip"
            }
          ],
          "text": "Specific gravity of Urine by Test strip"
        },
        "subject": {
          "reference": "Patient/1"
        },
        "effectiveDateTime": "2015-06-22T12:00:00Z",
        "issued": "2016-09-08T13:32:15.000+00:00",
        "performer": [
          {
            "reference": "#1"
          }
        ],
        "valueQuantity": {
          "value": 1.015,
          "unit": "1",
          "system": "http://unitsofmeasure.org",
          "code": "1"
        },
        "referenceRange": [
          {
            "low": {
              "value": 1.005,
              "unit": "1",
              "system": "http://unitsofmeasure.org",
              "code": "1"
            },
            "high": {
              "value": 1.03,
              "unit": "1",
              "system": "http://unitsofmeasure.org",
              "code": "1"
            }
          }
        ]
      }
    }