{
   "entry":[
      {
         "request":{
            "method":"PUT",
            "url":"Bundle/92626f59809bce0ed0df1c5be7573ace"
         },
         "resource":{
            "entry":[
               {
                  "resource":{
                     "attester":[
                        {
                           "mode":"professional",
                           "party":{
                              "reference":"PractitionerRole/536f241453ae163a70c3d08cc7a12d44"
                           }
                        }
                     ],
                     "author":[
                        {
                           "reference":"PractitionerRole/c4ecd005675ecc27099de8daba399721"
                        },
                        {
                           "reference":"PractitionerRole/fe124af8d07b96a25b37b2c5b4919131"
                        }
                     ],
                     "confidentiality":"N",
                     "custodian":{
                        "reference":"Organization/475b1be5ce24a154ee7c8f8200bc5a41"
                     },
                     "date":"2016-10-03",
                     "id":"06cba94dc7cb9c0cd282c695fde85d23",
                     "resourceType":"Composition",
                     "section":[
                        {
                           "code":{
                              "coding":[
                                 {
                                    "code":"8716-3",
                                    "display":"Vital Signs",
                                    "system":"urn:oid:2.16.840.1.113883.6.1"
                                 }
                              ]
                           },
                           "entry":[
                              {
                                 "reference":"Observation/d48127d61c99d62ca975864c125191ff"
                              }
                           ],
                           "title":"Vital Signs (Last Filed)"
                        },
                        {
                           "code":{
                              "coding":[
                                 {
                                    "code":"29762-2",
                                    "display":"Social History",
                                    "system":"urn:oid:2.16.840.1.113883.6.1"
                                 }
                              ]
                           },
                           "entry":[
                              {
                                 "reference":"Observation/a8317af7cda34c55b7582968f4518227"
                              }
                           ],
                           "title":"Social History"
                        },
                        {
                           "code":{
                              "coding":[
                                 {
                                    "code":"46240-8",
                                    "display":"Encounters",
                                    "system":"urn:oid:2.16.840.1.113883.6.1"
                                 }
                              ]
                           },
                           "entry":[
                              {
                                 "reference":"Encounter/dd1592438f13993f2ce4703f636242f3"
                              }
                           ],
                           "title":"ENCOUNTERS"
                        },
                        {
                           "code":{
                              "coding":[
                                 {
                                    "code":"11450-4",
                                    "system":"urn:oid:2.16.840.1.113883.6.1"
                                 }
                              ]
                           },
                           "entry":[
                              {
                                 "reference":"Condition/6d4800b694310e1ae613eadabbfa4eec"
                              },
                              {
                                 "reference":"Condition/907f50ff59cbf29080a8865ffc4ddde4"
                              }
                           ],
                           "title":"Problems"
                        },
                        {
                           "code":{
                              "coding":[
                                 {
                                    "code":"47519-4",
                                    "system":"urn:oid:2.16.840.1.113883.6.1"
                                 }
                              ]
                           },
                           "entry":[
                              {
                                 "reference":"Procedure/f7e91c1ab17e4cdfcb36f0a46a65631b"
                              }
                           ],
                           "title":"Procedures"
                        },
                        {
                           "code":{
                              "coding":[
                                 {
                                    "code":"30954-2",
                                    "system":"urn:oid:2.16.840.1.113883.6.1"
                                 }
                              ]
                           },
                           "entry":[
                              {
                                 "reference":"DiagnosticReport/d3b174c399797e1bba137af3198de33f"
                              }
                           ],
                           "title":"Results"
                        },
                        {
                           "code":{
                              "coding":[
                                 {
                                    "code":"10160-0",
                                    "display":"HISTORY OF MEDICATION USE",
                                    "system":"urn:oid:2.16.840.1.113883.6.1"
                                 }
                              ]
                           },
                           "entry":[
                              {
                                 "reference":"MedicationStatement/c790eaf1e2c22f13e1835ddfdcb850c1"
                              }
                           ],
                           "title":"MEDICATIONS"
                        },
                        {
                           "code":{
                              "coding":[
                                 {
                                    "code":"11369-6",
                                    "display":"History of immunizations",
                                    "system":"urn:oid:2.16.840.1.113883.6.1"
                                 }
                              ]
                           },
                           "entry":[
                              {
                                 "reference":"Immunization/1d080f2581fef79c1b7a905b7f313195"
                              }
                           ],
                           "title":"IMMUNIZATIONS"
                        },
                        {
                           "code":{
                              "coding":[
                                 {
                                    "code":"48765-2",
                                    "system":"urn:oid:2.16.840.1.113883.6.1"
                                 }
                              ]
                           },
                           "entry":[
                              {
                                 "reference":"AllergyIntolerance/ec35e0559a591c585e82bba7b7d649de"
                              }
                           ],
                           "title":"Allergies and Adverse Reactions"
                        }
                     ],
                     "status":"preliminary",
                     "subject":{
                        "reference":"Patient/8d638e43bf8261b7c0790adfee475f71"
                     },
                     "title":"Continuity of Care Document",
                     "type":{
                        "coding":[
                           {
                              "code":"34133-9",
                              "system":"urn:oid:2.16.840.1.113883.6.1"
                           }
                        ]
                     }
                  }
               },
               {
                  "resource":{
                     "id":"736423c6acd01cb83f07c284774eff87",
                     "name":"unknown",
                     "resourceType":"Location"
                  }
               },
               {
                  "resource":{
                     "id":"522c30c8c4fd43cc687bf1efca11a5bf",
                     "identifier":[
                        {
                           "system":"urn:oid:1.3.6.1.4.1.22812.3.2009316.3",
                           "value":"92698"
                        },
                        {
                           "system":"urn:oid:2.16.840.1.113883.4.6",
                           "value":"1234123400"
                        }
                     ],
                     "name":[
                        {
                           "family":"abc",
                           "given":[
                              "Provider"
                           ],
                           "use":"usual"
                        }
                     ],
                     "resourceType":"Practitioner"
                  }
               },
               {
                  "resource":{
                     "active":true,
                     "id":"d7174c08c156f0ab7382eed3baaabc8c",
                     "name":"unknown",
                     "resourceType":"Organization"
                  }
               },
               {
                  "resource":{
                     "address":{
                        "city":"Chicago",
                        "line":[
                           "123 main street"
                        ],
                        "postalCode":"60629",
                        "state":"IL"
                     },
                     "id":"2afb50787f3b9b96557608cb5195c3ab",
                     "name":"unknown",
                     "resourceType":"Location"
                  }
               },
               {
                  "resource":{
                     "id":"044f65650b26cad8c20b53783ad7b574",
                     "identifier":[
                        {
                           "system":"http://hl7.org/fhir/sid/us-npi",
                           "value":"unknown"
                        }
                     ],
                     "name":[
                        {
                           "family":"unknown"
                        }
                     ],
                     "resourceType":"Practitioner"
                  }
               },
               {
                  "resource":{
                     "active":true,
                     "address":[
                        {
                           "city":"Chicago",
                           "line":[
                              "123 main street"
                           ],
                           "postalCode":"60629",
                           "state":"IL"
                        }
                     ],
                     "id":"475b1be5ce24a154ee7c8f8200bc5a41",
                     "identifier":[
                        {
                           "system":"urn:oid:1.3.6.1.4.1.22812.3.2009316.3",
                           "value":"3"
                        }
                     ],
                     "name":"Primary Care's Partners Test",
                     "resourceType":"Organization",
                     "telecom":[
                        {
                           "system":"phone",
                           "value":"tel:+1-(676)857-6769"
                        }
                     ]
                  }
               },
               {
                  "resource":{
                     "active":true,
                     "code":[
                        {
                           "coding":[
                              {
                                 "code":"260000000X",
                                 "system":"urn:oid:2.16.840.1.113883.6.101"
                              }
                           ]
                        }
                     ],
                     "id":"4d13d9483d9af982e72c8d10cff541a6",
                     "identifier":[
                        {
                           "system":"urn:oid:1.3.6.1.4.1.22812.3.2009316.3",
                           "value":"92698"
                        },
                        {
                           "system":"urn:oid:2.16.840.1.113883.4.6",
                           "value":"1234123400"
                        }
                     ],
                     "location":[
                        {
                           "reference":"Location/736423c6acd01cb83f07c284774eff87"
                        }
                     ],
                     "organization":{
                        "reference":"Organization/d7174c08c156f0ab7382eed3baaabc8c"
                     },
                     "practitioner":{
                        "reference":"Practitioner/522c30c8c4fd43cc687bf1efca11a5bf"
                     },
                     "resourceType":"PractitionerRole",
                     "telecom":[
                        {
                           "system":"phone",
                           "value":"mailto:provider@abc.com"
                        }
                     ]
                  }
               },
               {
                  "resource":{
                     "address":[
                        {
                           "city":"Beaverton",
                           "line":[
                              "1357 Amber Drive"
                           ],
                           "postalCode":"97006",
                           "state":"OR"
                        }
                     ],
                     "birthDate":"1947-05-01",
                     "communication":[
                        {
                           "language":{
                              "coding":[
                                 {
                                    "code":"en"
                                 }
                              ]
                           },
                           "preferred":true
                        }
                     ],
                     "extension":[
                        {
                           "extension":[
                              {
                                 "url":"ombCategory",
                                 "valueCoding":{
                                    "code":"2106-3",
                                    "display":"White",
                                    "system":"urn:oid:2.16.840.1.113883.6.238"
                                 }
                              },
                              {
                                 "url":"text"
                              }
                           ],
                           "url":"http://hl7.org/fhir/us/core/StructureDefinition/us-core-race"
                        },
                        {
                           "extension":[
                              {
                                 "url":"ombCategory",
                                 "valueCoding":{
                                    "code":"2135-2",
                                    "display":"Hispanic or Latino",
                                    "system":"urn:oid:2.16.840.1.113883.6.238"
                                 }
                              },
                              {
                                 "url":"text"
                              }
                           ],
                           "url":"http://hl7.org/fhir/us/core/StructureDefinition/us-core-ethnicity"
                        }
                     ],
                     "gender":"female",
                     "generalPractitioner":[
                        {
                           "reference":"PractitionerRole/4d13d9483d9af982e72c8d10cff541a6"
                        }
                     ],
                     "id":"8d638e43bf8261b7c0790adfee475f71",
                     "identifier":[
                        {
                           "system":"urn:oid:1.3.6.1.4.1.22812.3.2009316.3",
                           "value":"160920144139807"
                        }
                     ],
                     "managingOrganization":{
                        "reference":"Organization/475b1be5ce24a154ee7c8f8200bc5a41"
                     },
                     "name":[
                        {
                           "family":"Jones",
                           "given":[
                              "Myra"
                           ],
                           "use":"usual"
                        }
                     ],
                     "resourceType":"Patient"
                  }
               },
               {
                  "resource":{
                     "active":true,
                     "code":[
                        {
                           "coding":[
                              {
                                 "code":"260000000X",
                                 "system":"urn:oid:2.16.840.1.113883.6.101"
                              }
                           ]
                        }
                     ],
                     "id":"c4ecd005675ecc27099de8daba399721",
                     "identifier":[
                        {
                           "system":"urn:oid:1.3.6.1.4.1.22812.3.2009316.3",
                           "value":"92698"
                        },
                        {
                           "system":"urn:oid:2.16.840.1.113883.4.6",
                           "value":"1234123400"
                        }
                     ],
                     "location":[
                        {
                           "reference":"Location/736423c6acd01cb83f07c284774eff87"
                        }
                     ],
                     "organization":{
                        "reference":"Organization/d7174c08c156f0ab7382eed3baaabc8c"
                     },
                     "practitioner":{
                        "reference":"Practitioner/522c30c8c4fd43cc687bf1efca11a5bf"
                     },
                     "resourceType":"PractitionerRole",
                     "telecom":[
                        {
                           "system":"phone",
                           "value":"mailto:provider@allsripts.com"
                        }
                     ]
                  }
               },
               {
                  "resource":{
                     "active":true,
                     "id":"fe124af8d07b96a25b37b2c5b4919131",
                     "identifier":[
                        {
                           "system":"urn:oid:1.3.6.1.4.1.22812.3.2009316.3.3.3",
                           "value":"3"
                        }
                     ],
                     "location":[
                        {
                           "reference":"Location/2afb50787f3b9b96557608cb5195c3ab"
                        }
                     ],
                     "organization":{
                        "reference":"Organization/475b1be5ce24a154ee7c8f8200bc5a41"
                     },
                     "practitioner":{
                        "reference":"Practitioner/044f65650b26cad8c20b53783ad7b574"
                     },
                     "resourceType":"PractitionerRole",
                     "telecom":[
                        {
                           "system":"phone",
                           "value":"tel:+1-(676)857-6769"
                        }
                     ]
                  }
               },
               {
                  "resource":{
                     "active":true,
                     "id":"536f241453ae163a70c3d08cc7a12d44",
                     "identifier":[
                        {
                           "system":"urn:oid:1.3.6.1.4.1.22812.3.2009316.3",
                           "value":"92698"
                        },
                        {
                           "system":"urn:oid:2.16.840.1.113883.4.6",
                           "value":"1234123400"
                        }
                     ],
                     "location":[
                        {
                           "reference":"Location/736423c6acd01cb83f07c284774eff87"
                        }
                     ],
                     "organization":{
                        "reference":"Organization/d7174c08c156f0ab7382eed3baaabc8c"
                     },
                     "practitioner":{
                        "reference":"Practitioner/522c30c8c4fd43cc687bf1efca11a5bf"
                     },
                     "resourceType":"PractitionerRole",
                     "telecom":[
                        {
                           "system":"phone",
                           "value":"mailto:provider@abc.com"
                        }
                     ]
                  }
               },
               {
                  "resource":{
                     "category":[
                        {
                           "coding":[
                              {
                                 "code":"vital-signs",
                                 "system":"http://terminology.hl7.org/CodeSystem/observation-category"
                              }
                           ]
                        }
                     ],
                     "code":{
                        "coding":[
                           {
                              "code":"8867-4",
                              "display":"HEART RATE",
                              "system":"urn:oid:2.16.840.1.113883.6.1"
                           }
                        ]
                     },
                     "component":[
                        {
                           "code":{
                              "coding":[
                                 {
                                    "code":"8867-4",
                                    "display":"HEART RATE",
                                    "system":"urn:oid:2.16.840.1.113883.6.1"
                                 }
                              ]
                           },
                           "valueQuantity":{
                              "unit":"/min",
                              "value":80
                           }
                        }
                     ],
                     "effectiveDateTime":"2014-05-21T01:36:05+00:00",
                     "id":"d48127d61c99d62ca975864c125191ff",
                     "identifier":[
                        {
                           "system":"urn:oid:2.16.840.1.113883.3.42.126.100001.19",
                           "value":"216881330410151584"
                        }
                     ],
                     "issued":"2009-08-07T06:05:04.321Z",
                     "resourceType":"Observation",
                     "status":"final",
                     "subject":{
                        "reference":"Patient/8d638e43bf8261b7c0790adfee475f71"
                     }
                  }
               },
               {
                  "resource":{
                     "id":"d0b16037f5a2c00e54c2c0a071ab7176",
                     "identifier":[
                        {
                           "system":"urn:oid:2.16.840.1.113883.4.6",
                           "value":"99999999"
                        }
                     ],
                     "name":[
                        {
                           "family":"Seven",
                           "given":[
                              "Henry"
                           ],
                           "use":"usual"
                        }
                     ],
                     "resourceType":"Practitioner"
                  }
               },
               {
                  "resource":{
                     "active":true,
                     "code":[
                        {
                           "coding":[
                              {
                                 "code":"200000000X",
                                 "display":"Allopathic and Osteopathic Physicians",
                                 "system":"urn:oid:2.16.840.1.113883.6.101"
                              }
                           ]
                        }
                     ],
                     "id":"0981ecc006703cabe62875e349dc7b30",
                     "identifier":[
                        {
                           "system":"urn:oid:2.16.840.1.113883.4.6",
                           "value":"99999999"
                        }
                     ],
                     "organization":{
                        "reference":"Organization/d7174c08c156f0ab7382eed3baaabc8c"
                     },
                     "practitioner":{
                        "reference":"Practitioner/d0b16037f5a2c00e54c2c0a071ab7176"
                     },
                     "resourceType":"PractitionerRole",
                     "telecom":[
                        {
                           "system":"phone",
                           "value":"tel:+1(555)555-1002"
                        }
                     ]
                  }
               },
               {
                  "resource":{
                     "category":[
                        {
                           "coding":[
                              {
                                 "code":"social-history",
                                 "system":"http://terminology.hl7.org/CodeSystem/observation-category"
                              }
                           ]
                        }
                     ],
                     "code":{
                        "coding":[
                           {
                              "code":"72166-2",
                              "display":"Tobacco smoking status NHIS",
                              "system":"urn:oid:2.16.840.1.113883.6.1"
                           }
                        ]
                     },
                     "component":[
                        {
                           "code":{
                              "coding":[
                                 {
                                    "code":"72166-2",
                                    "display":"Tobacco smoking status NHIS",
                                    "system":"urn:oid:2.16.840.1.113883.6.1"
                                 }
                              ]
                           },
                           "valueCodeableConcept":{
                              "coding":[
                                 {
                                    "code":"449868002",
                                    "display":"Current every day smoker",
                                    "system":"urn:oid:2.16.840.1.113883.6.96"
                                 }
                              ]
                           }
                        }
                     ],
                     "effectiveDateTime":"2014-06-06T15:32:00+00:00",
                     "id":"a8317af7cda34c55b7582968f4518227",
                     "identifier":[
                        {
                           "system":"urn:oid:2.16.840.1.113883.19",
                           "value":"123456789"
                        }
                     ],
                     "issued":"2014-06-06T15:32:00.000+00:00",
                     "performer":[
                        {
                           "reference":"PractitionerRole/0981ecc006703cabe62875e349dc7b30"
                        }
                     ],
                     "resourceType":"Observation",
                     "status":"final",
                     "subject":{
                        "reference":"Patient/8d638e43bf8261b7c0790adfee475f71"
                     }
                  }
               },
               {
                  "resource":{
                     "id":"d4cc830c485b2eccc43ed74d40b53884",
                     "identifier":[
                        {
                           "system":"urn:oid:2.16.840.1.113883.4.6",
                           "value":"12345678910"
                        }
                     ],
                     "name":[
                        {
                           "family":"Khan",
                           "given":[
                              "Samir"
                           ],
                           "use":"usual"
                        }
                     ],
                     "resourceType":"Practitioner"
                  }
               },
               {
                  "resource":{
                     "active":true,
                     "code":[
                        {
                           "coding":[
                              {
                                 "code":"207R00000X",
                                 "display":"Internal Medicine",
                                 "system":"urn:oid:2.16.840.1.113883.6.101"
                              }
                           ]
                        }
                     ],
                     "id":"3da4c925e98d35227b81a3f44b4704d2",
                     "identifier":[
                        {
                           "system":"urn:oid:2.16.840.1.113883.4.6",
                           "value":"12345678910"
                        }
                     ],
                     "organization":{
                        "reference":"Organization/d7174c08c156f0ab7382eed3baaabc8c"
                     },
                     "practitioner":{
                        "reference":"Practitioner/d4cc830c485b2eccc43ed74d40b53884"
                     },
                     "resourceType":"PractitionerRole"
                  }
               },
               {
                  "resource":{
                     "class":{
                        "code":"99213",
                        "display":"Office outpatient visit 15 minutes",
                        "system":"urn:oid:2.16.840.1.113883.6.12"
                     },
                     "id":"dd1592438f13993f2ce4703f636242f3",
                     "participant":[
                        {
                           "individual":{
                              "reference":"PractitionerRole/3da4c925e98d35227b81a3f44b4704d2"
                           }
                        }
                     ],
                     "resourceType":"Encounter",
                     "status":"unknown",
                     "subject":{
                        "reference":"Patient/8d638e43bf8261b7c0790adfee475f71"
                     },
                     "type":[
                        {
                           "coding":[
                              {
                                 "code":"99213",
                                 "display":"Office outpatient visit 15 minutes",
                                 "system":"urn:oid:2.16.840.1.113883.6.12"
                              }
                           ]
                        }
                     ]
                  }
               },
               {
                  "resource":{
                     "category":[
                        {
                           "coding":[
                              {
                                 "code":"55607006",
                                 "system":"urn:oid:2.16.840.1.113883.6.96"
                              }
                           ]
                        }
                     ],
                     "clinicalStatus":{
                        "coding":[
                           {
                              "code":"active",
                              "system":"http://terminology.hl7.org/CodeSystem/condition-clinical"
                           }
                        ]
                     },
                     "code":{
                        "coding":[
                           {
                              "code":"233604007",
                              "system":"urn:oid:2.16.840.1.113883.6.96"
                           }
                        ]
                     },
                     "id":"6d4800b694310e1ae613eadabbfa4eec",
                     "identifier":[
                        {
                           "system":"urn:oid:1.3.6.1.4.1.22812.3.2009316.3.4.1.2.1",
                           "value":"545069300001"
                        },
                        {
                           "system":"urn:oid:1.3.6.1.4.1.22812.3.2009316.3.4.1.2.1",
                           "value":"545069300001"
                        }
                     ],
                     "onsetDateTime":"2012-08-06T00:00:00+00:00",
                     "resourceType":"Condition",
                     "subject":{
                        "reference":"Patient/8d638e43bf8261b7c0790adfee475f71"
                     }
                  }
               },
               {
                  "resource":{
                     "category":[
                        {
                           "coding":[
                              {
                                 "code":"55607006",
                                 "system":"urn:oid:2.16.840.1.113883.6.96"
                              }
                           ]
                        }
                     ],
                     "clinicalStatus":{
                        "coding":[
                           {
                              "code":"active",
                              "system":"http://terminology.hl7.org/CodeSystem/condition-clinical"
                           }
                        ]
                     },
                     "code":{
                        "coding":[
                           {
                              "code":"195967001",
                              "system":"urn:oid:2.16.840.1.113883.6.96"
                           }
                        ]
                     },
                     "id":"907f50ff59cbf29080a8865ffc4ddde4",
                     "identifier":[
                        {
                           "system":"urn:oid:1.3.6.1.4.1.22812.3.2009316.3.4.1.2.1",
                           "value":"545077400017"
                        },
                        {
                           "system":"urn:oid:1.3.6.1.4.1.22812.3.2009316.3.4.1.2.1",
                           "value":"545077400019"
                        }
                     ],
                     "resourceType":"Condition",
                     "subject":{
                        "reference":"Patient/8d638e43bf8261b7c0790adfee475f71"
                     }
                  }
               },
               {
                  "resource":{
                     "code":{
                        "coding":[
                           {
                              "code":"416940007",
                              "display":"H/O chest x-ray",
                              "system":"urn:oid:2.16.840.1.113883.6.96"
                           }
                        ]
                     },
                     "id":"f7e91c1ab17e4cdfcb36f0a46a65631b",
                     "identifier":[
                        {
                           "system":"urn:oid:1.3.6.1.4.1.22812.3.2009316.3.4.7",
                           "value":"545069400001"
                        },
                        {
                           "system":"urn:oid:1.3.6.1.4.1.22812.3.2009316.3.4.7",
                           "value":"545069400003"
                        }
                     ],
                     "resourceType":"Procedure",
                     "status":"in-progress",
                     "subject":{
                        "reference":"Patient/8d638e43bf8261b7c0790adfee475f71"
                     }
                  }
               },
               {
                  "resource":{
                     "category":[
                        {
                           "coding":[
                              {
                                 "code":"laboratory",
                                 "system":"http://terminology.hl7.org/CodeSystem/observation-category"
                              }
                           ]
                        }
                     ],
                     "code":{
                        "coding":[
                           {
                              "code":"5811-5",
                              "display":"Specific gravity of Urine by Test strip",
                              "system":"urn:oid:2.16.840.1.113883.6.1"
                           }
                        ]
                     },
                     "component":[
                        {
                           "code":{
                              "coding":[
                                 {
                                    "code":"5811-5",
                                    "display":"Specific gravity of Urine by Test strip",
                                    "system":"urn:oid:2.16.840.1.113883.6.1"
                                 }
                              ]
                           },
                           "valueQuantity":{
                              "unit":"1",
                              "value":1.015
                           }
                        }
                     ],
                     "effectiveDateTime":"2015-06-22T00:00:00+00:00",
                     "id":"b66a8b1e22656fe7ecd49ba91d1c296d",
                     "identifier":[
                        {
                           "system":"urn:oid:1.3.6.1.4.1.22812.20.1.1.4.5",
                           "value":"13"
                        }
                     ],
                     "issued":"2009-08-07T06:05:04.321Z",
                     "referenceRange":[
                        {
                           "high":{
                              "unit":"1",
                              "value":1.03
                           },
                           "low":{
                              "unit":"1",
                              "value":1.005
                           },
                           "text":"#_08b7d0ee-aff1-4144-a3a5-c89d56d855ad"
                        }
                     ],
                     "resourceType":"Observation",
                     "status":"final",
                     "subject":{
                        "reference":"Patient/8d638e43bf8261b7c0790adfee475f71"
                     }
                  }
               },
               {
                  "resource":{
                     "category":[
                        {
                           "coding":[
                              {
                                 "code":"unknown"
                              }
                           ]
                        }
                     ],
                     "code":{
                        "coding":[
                           {
                              "code":"24357-6",
                              "system":"urn:oid:2.16.840.1.113883.6.1"
                           }
                        ]
                     },
                     "effectivePeriod":{
                        "end":"2015-06-22T00:00:00+00:00",
                        "start":"2015-06-22T00:00:00+00:00"
                     },
                     "id":"d3b174c399797e1bba137af3198de33f",
                     "identifier":[
                        {
                           "system":"urn:oid:1.3.6.1.4.1.22812.20.1.1.4.5",
                           "value":"1"
                        }
                     ],
                     "issued":"2009-08-07T06:05:04.321Z",
                     "resourceType":"DiagnosticReport",
                     "result":[
                        {
                           "reference":"Observation/b66a8b1e22656fe7ecd49ba91d1c296d"
                        }
                     ],
                     "status":"final",
                     "subject":{
                        "reference":"Patient/8d638e43bf8261b7c0790adfee475f71"
                     }
                  }
               },
               {
                  "resource":{
                     "active":true,
                     "id":"f53118c443762bf284f0ad84829b5ee3",
                     "identifier":[
                        {
                           "system":"http://hl7.org/fhir/sid/us-npi",
                           "value":"unknown"
                        }
                     ],
                     "name":"unknown",
                     "resourceType":"Organization"
                  }
               },
               {
                  "resource":{
                     "code":{
                        "coding":[
                           {
                              "code":"582498",
                              "display":"Albuterol 0.09 MG/ACTUAT inhalant powder",
                              "system":"urn:oid:2.16.840.1.113883.6.88"
                           }
                        ]
                     },
                     "id":"cd78bc6a4a5029aeefbbd55563192f65",
                     "manufacturer":{
                        "reference":"Organization/f53118c443762bf284f0ad84829b5ee3"
                     },
                     "resourceType":"Medication"
                  }
               },
               {
                  "resource":{
                     "dosage":[
                        {
                           "doseAndRate":[
                              {
                                 "doseQuantity":{
                                    "value":1
                                 }
                              }
                           ]
                        }
                     ],
                     "id":"c790eaf1e2c22f13e1835ddfdcb850c1",
                     "medicationReference":{
                        "reference":"Medication/cd78bc6a4a5029aeefbbd55563192f65"
                     },
                     "resourceType":"MedicationStatement",
                     "status":"active",
                     "subject":{
                        "reference":"Patient/8d638e43bf8261b7c0790adfee475f71"
                     }
                  }
               },
               {
                  "resource":{
                     "address":{
                        "city":"Ann Arbor",
                        "country":"US",
                        "line":[
                           "1021 Health Drive"
                        ],
                        "postalCode":"99099",
                        "state":"MI"
                     },
                     "id":"43b2e35f601cee148a5eb9172868f27a",
                     "name":"unknown",
                     "resourceType":"Location"
                  }
               },
               {
                  "resource":{
                     "id":"99b009167b0e80a41eea59b5fa03f775",
                     "identifier":[
                        {
                           "system":"urn:oid:2.16.840.1.113883.19.5.9999.456",
                           "value":"2981824"
                        }
                     ],
                     "name":[
                        {
                           "family":"Assigned",
                           "given":[
                              "Amanda"
                           ],
                           "use":"usual"
                        }
                     ],
                     "resourceType":"Practitioner"
                  }
               },
               {
                  "resource":{
                     "active":true,
                     "id":"81f3f2528330396fad1998a615bb0f7f",
                     "name":"Good Health Clinic",
                     "resourceType":"Organization"
                  }
               },
               {
                  "resource":{
                     "active":true,
                     "id":"b96de6fdf4e4369d29b76cb6510b37c9",
                     "identifier":[
                        {
                           "system":"urn:oid:2.16.840.1.113883.19.5.9999.456",
                           "value":"2981824"
                        }
                     ],
                     "location":[
                        {
                           "reference":"Location/43b2e35f601cee148a5eb9172868f27a"
                        }
                     ],
                     "organization":{
                        "reference":"Organization/81f3f2528330396fad1998a615bb0f7f"
                     },
                     "practitioner":{
                        "reference":"Practitioner/99b009167b0e80a41eea59b5fa03f775"
                     },
                     "resourceType":"PractitionerRole"
                  }
               },
               {
                  "resource":{
                     "id":"1d080f2581fef79c1b7a905b7f313195",
                     "lotNumber":"1",
                     "manufacturer":{
                        "reference":"Organization/f53118c443762bf284f0ad84829b5ee3"
                     },
                     "occurrenceDateTime":"2010-08-15T00:00:00+00:00",
                     "patient":{
                        "reference":"Patient/8d638e43bf8261b7c0790adfee475f71"
                     },
                     "performer":[
                        {
                           "actor":{
                              "reference":"PractitionerRole/b96de6fdf4e4369d29b76cb6510b37c9"
                           }
                        }
                     ],
                     "primarySource":true,
                     "recorded":"2010-08-15T00:00:00+00:00",
                     "resourceType":"Immunization",
                     "status":"completed",
                     "vaccineCode":{
                        "coding":[
                           {
                              "code":"88",
                              "display":"Influenza virus vaccine",
                              "system":"urn:oid:2.16.840.1.113883.12.292"
                           }
                        ]
                     }
                  }
               },
               {
                  "resource":{
                     "category":[
                        "medication"
                     ],
                     "clinicalStatus":{
                        "coding":[
                           {
                              "code":"active",
                              "system":"http://terminology.hl7.org/CodeSystem/allergyintolerance-clinical"
                           }
                        ]
                     },
                     "code":{
                        "coding":[
                           {
                              "code":"unknown"
                           }
                        ]
                     },
                     "id":"ec35e0559a591c585e82bba7b7d649de",
                     "identifier":[
                        {
                           "system":"urn:oid:1.3.6.1.4.1.22812.3.2009316.3.4.10",
                           "value":"545077400001"
                        },
                        {
                           "system":"urn:oid:1.3.6.1.4.1.22812.3.2009316.3.4.10",
                           "value":"545077400003"
                        }
                     ],
                     "patient":{
                        "reference":"Patient/8d638e43bf8261b7c0790adfee475f71"
                     },
                     "reaction":[
                        {
                           "manifestation":[
                              {
                                 "coding":[
                                    {
                                       "code":"247472004",
                                       "system":"urn:oid:2.16.840.1.113883.6.96"
                                    }
                                 ]
                              }
                           ],
                           "severity":"severe",
                           "substance":{
                              "coding":[
                                 {
                                    "code":"1191",
                                    "system":"urn:oid:2.16.840.1.113883.6.88"
                                 }
                              ]
                           }
                        }
                     ],
                     "resourceType":"AllergyIntolerance"
                  }
               }
            ],
            "id":"92626f59809bce0ed0df1c5be7573ace",
            "identifier":{
               "system":"urn:oid:973c7e16-05dd-484f-a780-e80904fd8ff0",
               "value":"unknown"
            },
            "resourceType":"Bundle",
            "timestamp":"2016-10-03T18:27:10.000+00:00",
            "type":"document"
         }
      },
      {
         "request":{
            "method":"PUT",
            "url":"Composition/06cba94dc7cb9c0cd282c695fde85d23"
         },
         "resource":{
            "attester":[
               {
                  "mode":"professional",
                  "party":{
                     "reference":"PractitionerRole/536f241453ae163a70c3d08cc7a12d44"
                  }
               }
            ],
            "author":[
               {
                  "reference":"PractitionerRole/c4ecd005675ecc27099de8daba399721"
               },
               {
                  "reference":"PractitionerRole/fe124af8d07b96a25b37b2c5b4919131"
               }
            ],
            "confidentiality":"N",
            "custodian":{
               "reference":"Organization/475b1be5ce24a154ee7c8f8200bc5a41"
            },
            "date":"2016-10-03",
            "id":"06cba94dc7cb9c0cd282c695fde85d23",
            "resourceType":"Composition",
            "section":[
               {
                  "code":{
                     "coding":[
                        {
                           "code":"8716-3",
                           "display":"Vital Signs",
                           "system":"urn:oid:2.16.840.1.113883.6.1"
                        }
                     ]
                  },
                  "entry":[
                     {
                        "reference":"Observation/d48127d61c99d62ca975864c125191ff"
                     }
                  ],
                  "title":"Vital Signs (Last Filed)"
               },
               {
                  "code":{
                     "coding":[
                        {
                           "code":"29762-2",
                           "display":"Social History",
                           "system":"urn:oid:2.16.840.1.113883.6.1"
                        }
                     ]
                  },
                  "entry":[
                     {
                        "reference":"Observation/a8317af7cda34c55b7582968f4518227"
                     }
                  ],
                  "title":"Social History"
               },
               {
                  "code":{
                     "coding":[
                        {
                           "code":"46240-8",
                           "display":"Encounters",
                           "system":"urn:oid:2.16.840.1.113883.6.1"
                        }
                     ]
                  },
                  "entry":[
                     {
                        "reference":"Encounter/dd1592438f13993f2ce4703f636242f3"
                     }
                  ],
                  "title":"ENCOUNTERS"
               },
               {
                  "code":{
                     "coding":[
                        {
                           "code":"11450-4",
                           "system":"urn:oid:2.16.840.1.113883.6.1"
                        }
                     ]
                  },
                  "entry":[
                     {
                        "reference":"Condition/6d4800b694310e1ae613eadabbfa4eec"
                     },
                     {
                        "reference":"Condition/907f50ff59cbf29080a8865ffc4ddde4"
                     }
                  ],
                  "title":"Problems"
               },
               {
                  "code":{
                     "coding":[
                        {
                           "code":"47519-4",
                           "system":"urn:oid:2.16.840.1.113883.6.1"
                        }
                     ]
                  },
                  "entry":[
                     {
                        "reference":"Procedure/f7e91c1ab17e4cdfcb36f0a46a65631b"
                     }
                  ],
                  "title":"Procedures"
               },
               {
                  "code":{
                     "coding":[
                        {
                           "code":"30954-2",
                           "system":"urn:oid:2.16.840.1.113883.6.1"
                        }
                     ]
                  },
                  "entry":[
                     {
                        "reference":"DiagnosticReport/d3b174c399797e1bba137af3198de33f"
                     }
                  ],
                  "title":"Results"
               },
               {
                  "code":{
                     "coding":[
                        {
                           "code":"10160-0",
                           "display":"HISTORY OF MEDICATION USE",
                           "system":"urn:oid:2.16.840.1.113883.6.1"
                        }
                     ]
                  },
                  "entry":[
                     {
                        "reference":"MedicationStatement/c790eaf1e2c22f13e1835ddfdcb850c1"
                     }
                  ],
                  "title":"MEDICATIONS"
               },
               {
                  "code":{
                     "coding":[
                        {
                           "code":"11369-6",
                           "display":"History of immunizations",
                           "system":"urn:oid:2.16.840.1.113883.6.1"
                        }
                     ]
                  },
                  "entry":[
                     {
                        "reference":"Immunization/1d080f2581fef79c1b7a905b7f313195"
                     }
                  ],
                  "title":"IMMUNIZATIONS"
               },
               {
                  "code":{
                     "coding":[
                        {
                           "code":"48765-2",
                           "system":"urn:oid:2.16.840.1.113883.6.1"
                        }
                     ]
                  },
                  "entry":[
                     {
                        "reference":"AllergyIntolerance/ec35e0559a591c585e82bba7b7d649de"
                     }
                  ],
                  "title":"Allergies and Adverse Reactions"
               }
            ],
            "status":"preliminary",
            "subject":{
               "reference":"Patient/8d638e43bf8261b7c0790adfee475f71"
            },
            "title":"Continuity of Care Document",
            "type":{
               "coding":[
                  {
                     "code":"34133-9",
                     "system":"urn:oid:2.16.840.1.113883.6.1"
                  }
               ]
            }
         }
      },
      {
         "request":{
            "method":"PUT",
            "url":"Location/736423c6acd01cb83f07c284774eff87"
         },
         "resource":{
            "id":"736423c6acd01cb83f07c284774eff87",
            "name":"unknown",
            "resourceType":"Location"
         }
      },
      {
         "request":{
            "method":"PUT",
            "url":"Practitioner/522c30c8c4fd43cc687bf1efca11a5bf"
         },
         "resource":{
            "id":"522c30c8c4fd43cc687bf1efca11a5bf",
            "identifier":[
               {
                  "system":"urn:oid:1.3.6.1.4.1.22812.3.2009316.3",
                  "value":"92698"
               },
               {
                  "system":"urn:oid:2.16.840.1.113883.4.6",
                  "value":"1234123400"
               }
            ],
            "name":[
               {
                  "family":"abc",
                  "given":[
                     "Provider"
                  ],
                  "use":"usual"
               }
            ],
            "resourceType":"Practitioner"
         }
      },
      {
         "request":{
            "method":"PUT",
            "url":"Organization/d7174c08c156f0ab7382eed3baaabc8c"
         },
         "resource":{
            "active":true,
            "id":"d7174c08c156f0ab7382eed3baaabc8c",
            "name":"unknown",
            "resourceType":"Organization"
         }
      },
      {
         "request":{
            "method":"PUT",
            "url":"Location/2afb50787f3b9b96557608cb5195c3ab"
         },
         "resource":{
            "address":{
               "city":"Chicago",
               "line":[
                  "123 main street"
               ],
               "postalCode":"60629",
               "state":"IL"
            },
            "id":"2afb50787f3b9b96557608cb5195c3ab",
            "name":"unknown",
            "resourceType":"Location"
         }
      },
      {
         "request":{
            "method":"PUT",
            "url":"Practitioner/044f65650b26cad8c20b53783ad7b574"
         },
         "resource":{
            "id":"044f65650b26cad8c20b53783ad7b574",
            "identifier":[
               {
                  "system":"http://hl7.org/fhir/sid/us-npi",
                  "value":"unknown"
               }
            ],
            "name":[
               {
                  "family":"unknown"
               }
            ],
            "resourceType":"Practitioner"
         }
      },
      {
         "request":{
            "method":"PUT",
            "url":"Organization/475b1be5ce24a154ee7c8f8200bc5a41"
         },
         "resource":{
            "active":true,
            "address":[
               {
                  "city":"Chicago",
                  "line":[
                     "123 main street"
                  ],
                  "postalCode":"60629",
                  "state":"IL"
               }
            ],
            "id":"475b1be5ce24a154ee7c8f8200bc5a41",
            "identifier":[
               {
                  "system":"urn:oid:1.3.6.1.4.1.22812.3.2009316.3",
                  "value":"3"
               }
            ],
            "name":"Primary Care's Partners Test",
            "resourceType":"Organization",
            "telecom":[
               {
                  "system":"phone",
                  "value":"tel:+1-(676)857-6769"
               }
            ]
         }
      },
      {
         "request":{
            "method":"PUT",
            "url":"PractitionerRole/4d13d9483d9af982e72c8d10cff541a6"
         },
         "resource":{
            "active":true,
            "code":[
               {
                  "coding":[
                     {
                        "code":"260000000X",
                        "system":"urn:oid:2.16.840.1.113883.6.101"
                     }
                  ]
               }
            ],
            "id":"4d13d9483d9af982e72c8d10cff541a6",
            "identifier":[
               {
                  "system":"urn:oid:1.3.6.1.4.1.22812.3.2009316.3",
                  "value":"92698"
               },
               {
                  "system":"urn:oid:2.16.840.1.113883.4.6",
                  "value":"1234123400"
               }
            ],
            "location":[
               {
                  "reference":"Location/736423c6acd01cb83f07c284774eff87"
               }
            ],
            "organization":{
               "reference":"Organization/d7174c08c156f0ab7382eed3baaabc8c"
            },
            "practitioner":{
               "reference":"Practitioner/522c30c8c4fd43cc687bf1efca11a5bf"
            },
            "resourceType":"PractitionerRole",
            "telecom":[
               {
                  "system":"phone",
                  "value":"mailto:provider@abc.com"
               }
            ]
         }
      },
      {
         "request":{
            "method":"PUT",
            "url":"Patient/8d638e43bf8261b7c0790adfee475f71"
         },
         "resource":{
            "address":[
               {
                  "city":"Beaverton",
                  "line":[
                     "1357 Amber Drive"
                  ],
                  "postalCode":"97006",
                  "state":"OR"
               }
            ],
            "birthDate":"1947-05-01",
            "communication":[
               {
                  "language":{
                     "coding":[
                        {
                           "code":"en"
                        }
                     ]
                  },
                  "preferred":true
               }
            ],
            "extension":[
               {
                  "extension":[
                     {
                        "url":"ombCategory",
                        "valueCoding":{
                           "code":"2106-3",
                           "display":"White",
                           "system":"urn:oid:2.16.840.1.113883.6.238"
                        }
                     },
                     {
                        "url":"text"
                     }
                  ],
                  "url":"http://hl7.org/fhir/us/core/StructureDefinition/us-core-race"
               },
               {
                  "extension":[
                     {
                        "url":"ombCategory",
                        "valueCoding":{
                           "code":"2135-2",
                           "display":"Hispanic or Latino",
                           "system":"urn:oid:2.16.840.1.113883.6.238"
                        }
                     },
                     {
                        "url":"text"
                     }
                  ],
                  "url":"http://hl7.org/fhir/us/core/StructureDefinition/us-core-ethnicity"
               }
            ],
            "gender":"female",
            "generalPractitioner":[
               {
                  "reference":"PractitionerRole/4d13d9483d9af982e72c8d10cff541a6"
               }
            ],
            "id":"8d638e43bf8261b7c0790adfee475f71",
            "identifier":[
               {
                  "system":"urn:oid:1.3.6.1.4.1.22812.3.2009316.3",
                  "value":"160920144139807"
               }
            ],
            "managingOrganization":{
               "reference":"Organization/475b1be5ce24a154ee7c8f8200bc5a41"
            },
            "name":[
               {
                  "family":"Jones",
                  "given":[
                     "Myra"
                  ],
                  "use":"usual"
               }
            ],
            "resourceType":"Patient"
         }
      },
      {
         "request":{
            "method":"PUT",
            "url":"PractitionerRole/c4ecd005675ecc27099de8daba399721"
         },
         "resource":{
            "active":true,
            "code":[
               {
                  "coding":[
                     {
                        "code":"260000000X",
                        "system":"urn:oid:2.16.840.1.113883.6.101"
                     }
                  ]
               }
            ],
            "id":"c4ecd005675ecc27099de8daba399721",
            "identifier":[
               {
                  "system":"urn:oid:1.3.6.1.4.1.22812.3.2009316.3",
                  "value":"92698"
               },
               {
                  "system":"urn:oid:2.16.840.1.113883.4.6",
                  "value":"1234123400"
               }
            ],
            "location":[
               {
                  "reference":"Location/736423c6acd01cb83f07c284774eff87"
               }
            ],
            "organization":{
               "reference":"Organization/d7174c08c156f0ab7382eed3baaabc8c"
            },
            "practitioner":{
               "reference":"Practitioner/522c30c8c4fd43cc687bf1efca11a5bf"
            },
            "resourceType":"PractitionerRole",
            "telecom":[
               {
                  "system":"phone",
                  "value":"mailto:provider@allsripts.com"
               }
            ]
         }
      },
      {
         "request":{
            "method":"PUT",
            "url":"PractitionerRole/fe124af8d07b96a25b37b2c5b4919131"
         },
         "resource":{
            "active":true,
            "id":"fe124af8d07b96a25b37b2c5b4919131",
            "identifier":[
               {
                  "system":"urn:oid:1.3.6.1.4.1.22812.3.2009316.3.3.3",
                  "value":"3"
               }
            ],
            "location":[
               {
                  "reference":"Location/2afb50787f3b9b96557608cb5195c3ab"
               }
            ],
            "organization":{
               "reference":"Organization/475b1be5ce24a154ee7c8f8200bc5a41"
            },
            "practitioner":{
               "reference":"Practitioner/044f65650b26cad8c20b53783ad7b574"
            },
            "resourceType":"PractitionerRole",
            "telecom":[
               {
                  "system":"phone",
                  "value":"tel:+1-(676)857-6769"
               }
            ]
         }
      },
      {
         "request":{
            "method":"PUT",
            "url":"PractitionerRole/536f241453ae163a70c3d08cc7a12d44"
         },
         "resource":{
            "active":true,
            "id":"536f241453ae163a70c3d08cc7a12d44",
            "identifier":[
               {
                  "system":"urn:oid:1.3.6.1.4.1.22812.3.2009316.3",
                  "value":"92698"
               },
               {
                  "system":"urn:oid:2.16.840.1.113883.4.6",
                  "value":"1234123400"
               }
            ],
            "location":[
               {
                  "reference":"Location/736423c6acd01cb83f07c284774eff87"
               }
            ],
            "organization":{
               "reference":"Organization/d7174c08c156f0ab7382eed3baaabc8c"
            },
            "practitioner":{
               "reference":"Practitioner/522c30c8c4fd43cc687bf1efca11a5bf"
            },
            "resourceType":"PractitionerRole",
            "telecom":[
               {
                  "system":"phone",
                  "value":"mailto:provider@abc.com"
               }
            ]
         }
      },
      {
         "request":{
            "method":"PUT",
            "url":"Observation/d48127d61c99d62ca975864c125191ff"
         },
         "resource":{
            "category":[
               {
                  "coding":[
                     {
                        "code":"vital-signs",
                        "system":"http://terminology.hl7.org/CodeSystem/observation-category"
                     }
                  ]
               }
            ],
            "code":{
               "coding":[
                  {
                     "code":"8867-4",
                     "display":"HEART RATE",
                     "system":"urn:oid:2.16.840.1.113883.6.1"
                  }
               ]
            },
            "component":[
               {
                  "code":{
                     "coding":[
                        {
                           "code":"8867-4",
                           "display":"HEART RATE",
                           "system":"urn:oid:2.16.840.1.113883.6.1"
                        }
                     ]
                  },
                  "valueQuantity":{
                     "unit":"/min",
                     "value":80
                  }
               }
            ],
            "effectiveDateTime":"2014-05-21T01:36:05+00:00",
            "id":"d48127d61c99d62ca975864c125191ff",
            "identifier":[
               {
                  "system":"urn:oid:2.16.840.1.113883.3.42.126.100001.19",
                  "value":"216881330410151584"
               }
            ],
            "issued":"2009-08-07T06:05:04.321Z",
            "resourceType":"Observation",
            "status":"final",
            "subject":{
               "reference":"Patient/8d638e43bf8261b7c0790adfee475f71"
            }
         }
      },
      {
         "request":{
            "method":"PUT",
            "url":"Practitioner/d0b16037f5a2c00e54c2c0a071ab7176"
         },
         "resource":{
            "id":"d0b16037f5a2c00e54c2c0a071ab7176",
            "identifier":[
               {
                  "system":"urn:oid:2.16.840.1.113883.4.6",
                  "value":"99999999"
               }
            ],
            "name":[
               {
                  "family":"Seven",
                  "given":[
                     "Henry"
                  ],
                  "use":"usual"
               }
            ],
            "resourceType":"Practitioner"
         }
      },
      {
         "request":{
            "method":"PUT",
            "url":"PractitionerRole/0981ecc006703cabe62875e349dc7b30"
         },
         "resource":{
            "active":true,
            "code":[
               {
                  "coding":[
                     {
                        "code":"200000000X",
                        "display":"Allopathic and Osteopathic Physicians",
                        "system":"urn:oid:2.16.840.1.113883.6.101"
                     }
                  ]
               }
            ],
            "id":"0981ecc006703cabe62875e349dc7b30",
            "identifier":[
               {
                  "system":"urn:oid:2.16.840.1.113883.4.6",
                  "value":"99999999"
               }
            ],
            "organization":{
               "reference":"Organization/d7174c08c156f0ab7382eed3baaabc8c"
            },
            "practitioner":{
               "reference":"Practitioner/d0b16037f5a2c00e54c2c0a071ab7176"
            },
            "resourceType":"PractitionerRole",
            "telecom":[
               {
                  "system":"phone",
                  "value":"tel:+1(555)555-1002"
               }
            ]
         }
      },
      {
         "request":{
            "method":"PUT",
            "url":"Observation/a8317af7cda34c55b7582968f4518227"
         },
         "resource":{
            "category":[
               {
                  "coding":[
                     {
                        "code":"social-history",
                        "system":"http://terminology.hl7.org/CodeSystem/observation-category"
                     }
                  ]
               }
            ],
            "code":{
               "coding":[
                  {
                     "code":"72166-2",
                     "display":"Tobacco smoking status NHIS",
                     "system":"urn:oid:2.16.840.1.113883.6.1"
                  }
               ]
            },
            "component":[
               {
                  "code":{
                     "coding":[
                        {
                           "code":"72166-2",
                           "display":"Tobacco smoking status NHIS",
                           "system":"urn:oid:2.16.840.1.113883.6.1"
                        }
                     ]
                  },
                  "valueCodeableConcept":{
                     "coding":[
                        {
                           "code":"449868002",
                           "display":"Current every day smoker",
                           "system":"urn:oid:2.16.840.1.113883.6.96"
                        }
                     ]
                  }
               }
            ],
            "effectiveDateTime":"2014-06-06T15:32:00+00:00",
            "id":"a8317af7cda34c55b7582968f4518227",
            "identifier":[
               {
                  "system":"urn:oid:2.16.840.1.113883.19",
                  "value":"123456789"
               }
            ],
            "issued":"2014-06-06T15:32:00.000+00:00",
            "performer":[
               {
                  "reference":"PractitionerRole/0981ecc006703cabe62875e349dc7b30"
               }
            ],
            "resourceType":"Observation",
            "status":"final",
            "subject":{
               "reference":"Patient/8d638e43bf8261b7c0790adfee475f71"
            }
         }
      },
      {
         "request":{
            "method":"PUT",
            "url":"Practitioner/d4cc830c485b2eccc43ed74d40b53884"
         },
         "resource":{
            "id":"d4cc830c485b2eccc43ed74d40b53884",
            "identifier":[
               {
                  "system":"urn:oid:2.16.840.1.113883.4.6",
                  "value":"12345678910"
               }
            ],
            "name":[
               {
                  "family":"Khan",
                  "given":[
                     "Samir"
                  ],
                  "use":"usual"
               }
            ],
            "resourceType":"Practitioner"
         }
      },
      {
         "request":{
            "method":"PUT",
            "url":"PractitionerRole/3da4c925e98d35227b81a3f44b4704d2"
         },
         "resource":{
            "active":true,
            "code":[
               {
                  "coding":[
                     {
                        "code":"207R00000X",
                        "display":"Internal Medicine",
                        "system":"urn:oid:2.16.840.1.113883.6.101"
                     }
                  ]
               }
            ],
            "id":"3da4c925e98d35227b81a3f44b4704d2",
            "identifier":[
               {
                  "system":"urn:oid:2.16.840.1.113883.4.6",
                  "value":"12345678910"
               }
            ],
            "organization":{
               "reference":"Organization/d7174c08c156f0ab7382eed3baaabc8c"
            },
            "practitioner":{
               "reference":"Practitioner/d4cc830c485b2eccc43ed74d40b53884"
            },
            "resourceType":"PractitionerRole"
         }
      },
      {
         "request":{
            "method":"PUT",
            "url":"Encounter/dd1592438f13993f2ce4703f636242f3"
         },
         "resource":{
            "class":{
               "code":"99213",
               "display":"Office outpatient visit 15 minutes",
               "system":"urn:oid:2.16.840.1.113883.6.12"
            },
            "id":"dd1592438f13993f2ce4703f636242f3",
            "participant":[
               {
                  "individual":{
                     "reference":"PractitionerRole/3da4c925e98d35227b81a3f44b4704d2"
                  }
               }
            ],
            "resourceType":"Encounter",
            "status":"unknown",
            "subject":{
               "reference":"Patient/8d638e43bf8261b7c0790adfee475f71"
            },
            "type":[
               {
                  "coding":[
                     {
                        "code":"99213",
                        "display":"Office outpatient visit 15 minutes",
                        "system":"urn:oid:2.16.840.1.113883.6.12"
                     }
                  ]
               }
            ]
         }
      },
      {
         "request":{
            "method":"PUT",
            "url":"Condition/6d4800b694310e1ae613eadabbfa4eec"
         },
         "resource":{
            "category":[
               {
                  "coding":[
                     {
                        "code":"55607006",
                        "system":"urn:oid:2.16.840.1.113883.6.96"
                     }
                  ]
               }
            ],
            "clinicalStatus":{
               "coding":[
                  {
                     "code":"active",
                     "system":"http://terminology.hl7.org/CodeSystem/condition-clinical"
                  }
               ]
            },
            "code":{
               "coding":[
                  {
                     "code":"233604007",
                     "system":"urn:oid:2.16.840.1.113883.6.96"
                  }
               ]
            },
            "id":"6d4800b694310e1ae613eadabbfa4eec",
            "identifier":[
               {
                  "system":"urn:oid:1.3.6.1.4.1.22812.3.2009316.3.4.1.2.1",
                  "value":"545069300001"
               },
               {
                  "system":"urn:oid:1.3.6.1.4.1.22812.3.2009316.3.4.1.2.1",
                  "value":"545069300001"
               }
            ],
            "onsetDateTime":"2012-08-06T00:00:00+00:00",
            "resourceType":"Condition",
            "subject":{
               "reference":"Patient/8d638e43bf8261b7c0790adfee475f71"
            }
         }
      },
      {
         "request":{
            "method":"PUT",
            "url":"Condition/907f50ff59cbf29080a8865ffc4ddde4"
         },
         "resource":{
            "category":[
               {
                  "coding":[
                     {
                        "code":"55607006",
                        "system":"urn:oid:2.16.840.1.113883.6.96"
                     }
                  ]
               }
            ],
            "clinicalStatus":{
               "coding":[
                  {
                     "code":"active",
                     "system":"http://terminology.hl7.org/CodeSystem/condition-clinical"
                  }
               ]
            },
            "code":{
               "coding":[
                  {
                     "code":"195967001",
                     "system":"urn:oid:2.16.840.1.113883.6.96"
                  }
               ]
            },
            "id":"907f50ff59cbf29080a8865ffc4ddde4",
            "identifier":[
               {
                  "system":"urn:oid:1.3.6.1.4.1.22812.3.2009316.3.4.1.2.1",
                  "value":"545077400017"
               },
               {
                  "system":"urn:oid:1.3.6.1.4.1.22812.3.2009316.3.4.1.2.1",
                  "value":"545077400019"
               }
            ],
            "resourceType":"Condition",
            "subject":{
               "reference":"Patient/8d638e43bf8261b7c0790adfee475f71"
            }
         }
      },
      {
         "request":{
            "method":"PUT",
            "url":"Procedure/f7e91c1ab17e4cdfcb36f0a46a65631b"
         },
         "resource":{
            "code":{
               "coding":[
                  {
                     "code":"416940007",
                     "display":"H/O chest x-ray",
                     "system":"urn:oid:2.16.840.1.113883.6.96"
                  }
               ]
            },
            "id":"f7e91c1ab17e4cdfcb36f0a46a65631b",
            "identifier":[
               {
                  "system":"urn:oid:1.3.6.1.4.1.22812.3.2009316.3.4.7",
                  "value":"545069400001"
               },
               {
                  "system":"urn:oid:1.3.6.1.4.1.22812.3.2009316.3.4.7",
                  "value":"545069400003"
               }
            ],
            "resourceType":"Procedure",
            "status":"in-progress",
            "subject":{
               "reference":"Patient/8d638e43bf8261b7c0790adfee475f71"
            }
         }
      },
      {
         "request":{
            "method":"PUT",
            "url":"Observation/b66a8b1e22656fe7ecd49ba91d1c296d"
         },
         "resource":{
            "category":[
               {
                  "coding":[
                     {
                        "code":"laboratory",
                        "system":"http://terminology.hl7.org/CodeSystem/observation-category"
                     }
                  ]
               }
            ],
            "code":{
               "coding":[
                  {
                     "code":"5811-5",
                     "display":"Specific gravity of Urine by Test strip",
                     "system":"urn:oid:2.16.840.1.113883.6.1"
                  }
               ]
            },
            "component":[
               {
                  "code":{
                     "coding":[
                        {
                           "code":"5811-5",
                           "display":"Specific gravity of Urine by Test strip",
                           "system":"urn:oid:2.16.840.1.113883.6.1"
                        }
                     ]
                  },
                  "valueQuantity":{
                     "unit":"1",
                     "value":1.015
                  }
               }
            ],
            "effectiveDateTime":"2015-06-22T00:00:00+00:00",
            "id":"b66a8b1e22656fe7ecd49ba91d1c296d",
            "identifier":[
               {
                  "system":"urn:oid:1.3.6.1.4.1.22812.20.1.1.4.5",
                  "value":"13"
               }
            ],
            "issued":"2009-08-07T06:05:04.321Z",
            "referenceRange":[
               {
                  "high":{
                     "unit":"1",
                     "value":1.03
                  },
                  "low":{
                     "unit":"1",
                     "value":1.005
                  },
                  "text":"#_08b7d0ee-aff1-4144-a3a5-c89d56d855ad"
               }
            ],
            "resourceType":"Observation",
            "status":"final",
            "subject":{
               "reference":"Patient/8d638e43bf8261b7c0790adfee475f71"
            }
         }
      },
      {
         "request":{
            "method":"PUT",
            "url":"DiagnosticReport/d3b174c399797e1bba137af3198de33f"
         },
         "resource":{
            "category":[
               {
                  "coding":[
                     {
                        "code":"unknown"
                     }
                  ]
               }
            ],
            "code":{
               "coding":[
                  {
                     "code":"24357-6",
                     "system":"urn:oid:2.16.840.1.113883.6.1"
                  }
               ]
            },
            "effectivePeriod":{
               "end":"2015-06-22T00:00:00+00:00",
               "start":"2015-06-22T00:00:00+00:00"
            },
            "id":"d3b174c399797e1bba137af3198de33f",
            "identifier":[
               {
                  "system":"urn:oid:1.3.6.1.4.1.22812.20.1.1.4.5",
                  "value":"1"
               }
            ],
            "issued":"2009-08-07T06:05:04.321Z",
            "resourceType":"DiagnosticReport",
            "result":[
               {
                  "reference":"Observation/b66a8b1e22656fe7ecd49ba91d1c296d"
               }
            ],
            "status":"final",
            "subject":{
               "reference":"Patient/8d638e43bf8261b7c0790adfee475f71"
            }
         }
      },
      {
         "request":{
            "method":"PUT",
            "url":"Organization/f53118c443762bf284f0ad84829b5ee3"
         },
         "resource":{
            "active":true,
            "id":"f53118c443762bf284f0ad84829b5ee3",
            "identifier":[
               {
                  "system":"http://hl7.org/fhir/sid/us-npi",
                  "value":"unknown"
               }
            ],
            "name":"unknown",
            "resourceType":"Organization"
         }
      },
      {
         "request":{
            "method":"PUT",
            "url":"Medication/cd78bc6a4a5029aeefbbd55563192f65"
         },
         "resource":{
            "code":{
               "coding":[
                  {
                     "code":"582498",
                     "display":"Albuterol 0.09 MG/ACTUAT inhalant powder",
                     "system":"urn:oid:2.16.840.1.113883.6.88"
                  }
               ]
            },
            "id":"cd78bc6a4a5029aeefbbd55563192f65",
            "manufacturer":{
               "reference":"Organization/f53118c443762bf284f0ad84829b5ee3"
            },
            "resourceType":"Medication"
         }
      },
      {
         "request":{
            "method":"PUT",
            "url":"MedicationStatement/c790eaf1e2c22f13e1835ddfdcb850c1"
         },
         "resource":{
            "dosage":[
               {
                  "doseAndRate":[
                     {
                        "doseQuantity":{
                           "value":1
                        }
                     }
                  ]
               }
            ],
            "id":"c790eaf1e2c22f13e1835ddfdcb850c1",
            "medicationReference":{
               "reference":"Medication/cd78bc6a4a5029aeefbbd55563192f65"
            },
            "resourceType":"MedicationStatement",
            "status":"active",
            "subject":{
               "reference":"Patient/8d638e43bf8261b7c0790adfee475f71"
            }
         }
      },
      {
         "request":{
            "method":"PUT",
            "url":"Location/43b2e35f601cee148a5eb9172868f27a"
         },
         "resource":{
            "address":{
               "city":"Ann Arbor",
               "country":"US",
               "line":[
                  "1021 Health Drive"
               ],
               "postalCode":"99099",
               "state":"MI"
            },
            "id":"43b2e35f601cee148a5eb9172868f27a",
            "name":"unknown",
            "resourceType":"Location"
         }
      },
      {
         "request":{
            "method":"PUT",
            "url":"Practitioner/99b009167b0e80a41eea59b5fa03f775"
         },
         "resource":{
            "id":"99b009167b0e80a41eea59b5fa03f775",
            "identifier":[
               {
                  "system":"urn:oid:2.16.840.1.113883.19.5.9999.456",
                  "value":"2981824"
               }
            ],
            "name":[
               {
                  "family":"Assigned",
                  "given":[
                     "Amanda"
                  ],
                  "use":"usual"
               }
            ],
            "resourceType":"Practitioner"
         }
      },
      {
         "request":{
            "method":"PUT",
            "url":"Organization/81f3f2528330396fad1998a615bb0f7f"
         },
         "resource":{
            "active":true,
            "id":"81f3f2528330396fad1998a615bb0f7f",
            "name":"Good Health Clinic",
            "resourceType":"Organization"
         }
      },
      {
         "request":{
            "method":"PUT",
            "url":"PractitionerRole/b96de6fdf4e4369d29b76cb6510b37c9"
         },
         "resource":{
            "active":true,
            "id":"b96de6fdf4e4369d29b76cb6510b37c9",
            "identifier":[
               {
                  "system":"urn:oid:2.16.840.1.113883.19.5.9999.456",
                  "value":"2981824"
               }
            ],
            "location":[
               {
                  "reference":"Location/43b2e35f601cee148a5eb9172868f27a"
               }
            ],
            "organization":{
               "reference":"Organization/81f3f2528330396fad1998a615bb0f7f"
            },
            "practitioner":{
               "reference":"Practitioner/99b009167b0e80a41eea59b5fa03f775"
            },
            "resourceType":"PractitionerRole"
         }
      },
      {
         "request":{
            "method":"PUT",
            "url":"Immunization/1d080f2581fef79c1b7a905b7f313195"
         },
         "resource":{
            "id":"1d080f2581fef79c1b7a905b7f313195",
            "lotNumber":"1",
            "manufacturer":{
               "reference":"Organization/f53118c443762bf284f0ad84829b5ee3"
            },
            "occurrenceDateTime":"2010-08-15T00:00:00+00:00",
            "patient":{
               "reference":"Patient/8d638e43bf8261b7c0790adfee475f71"
            },
            "performer":[
               {
                  "actor":{
                     "reference":"PractitionerRole/b96de6fdf4e4369d29b76cb6510b37c9"
                  }
               }
            ],
            "primarySource":true,
            "recorded":"2010-08-15T00:00:00+00:00",
            "resourceType":"Immunization",
            "status":"completed",
            "vaccineCode":{
               "coding":[
                  {
                     "code":"88",
                     "display":"Influenza virus vaccine",
                     "system":"urn:oid:2.16.840.1.113883.12.292"
                  }
               ]
            }
         }
      },
      {
         "request":{
            "method":"PUT",
            "url":"AllergyIntolerance/ec35e0559a591c585e82bba7b7d649de"
         },
         "resource":{
            "category":[
               "medication"
            ],
            "clinicalStatus":{
               "coding":[
                  {
                     "code":"active",
                     "system":"http://terminology.hl7.org/CodeSystem/allergyintolerance-clinical"
                  }
               ]
            },
            "code":{
               "coding":[
                  {
                     "code":"unknown"
                  }
               ]
            },
            "id":"ec35e0559a591c585e82bba7b7d649de",
            "identifier":[
               {
                  "system":"urn:oid:1.3.6.1.4.1.22812.3.2009316.3.4.10",
                  "value":"545077400001"
               },
               {
                  "system":"urn:oid:1.3.6.1.4.1.22812.3.2009316.3.4.10",
                  "value":"545077400003"
               }
            ],
            "patient":{
               "reference":"Patient/8d638e43bf8261b7c0790adfee475f71"
            },
            "reaction":[
               {
                  "manifestation":[
                     {
                        "coding":[
                           {
                              "code":"247472004",
                              "system":"urn:oid:2.16.840.1.113883.6.96"
                           }
                        ]
                     }
                  ],
                  "severity":"severe",
                  "substance":{
                     "coding":[
                        {
                           "code":"1191",
                           "system":"urn:oid:2.16.840.1.113883.6.88"
                        }
                     ]
                  }
               }
            ],
            "resourceType":"AllergyIntolerance"
         }
      }
   ],
   "identifier":{
      "system":"urn:oid:973c7e16-05dd-484f-a780-e80904fd8ff0",
      "value":"unknown"
   },
   "resourceType":"Bundle",
   "timestamp":"2016-10-03T18:27:10.000+00:00",
   "type":"transaction"
}}